File: ifeffit-1.2.5/examples/Minimize/xrd.dat
#:RESULT:FerriteDAFS01.0003.q
#--------------------------
#Q     Intensity
  0.799378       274.233
  0.803122       274.416
  0.806865       274.066
  0.810609       274.274
  0.814353       274.775
  0.818096       274.589
  0.821840       273.943
  0.825583       273.491
  0.829326       273.249
  0.833069       272.993
  0.836812       272.964
  0.840555       272.959
  0.844297       272.515
  0.848040       271.931
  0.851782       271.743
  0.855524       271.593
  0.859266       271.452
  0.863008       271.052
  0.866750       270.133
  0.870492       268.971
  0.874233       268.461
  0.877975       268.234
  0.881716       268.391
  0.885457       268.183
  0.889198       268.391
  0.892939       268.629
  0.896680       268.115
  0.900420       267.788
  0.904161       266.801
  0.907901       266.035
  0.911641       265.309
  0.915381       264.559
  0.919121       263.93
  0.922861       264.413
  0.926601       264.825
  0.930340       264.508
  0.934079       263.964
  0.937819       263.22
  0.941558       262.818
  0.945297       262.625
  0.949035       262.368
  0.952774       262.153
  0.956512       261.616
  0.960251       261.224
  0.963989       260.46
  0.967727       260.905
  0.971465       261.604
  0.975203       261.385
  0.978940       260.428
  0.982678       259.756
  0.986415       259.071
  0.990152       258.733
  0.993889       258.201
  0.997626       257.594
  1.001363       257.007
  1.005099       256.601
  1.008835       256.722
  1.012572       256.65
  1.016308       256.113
  1.020044       256.005
  1.023779       256.396
  1.027515       256.448
  1.031250       255.042
  1.034986       254.155
  1.038721       254.119
  1.042456       253.33
  1.046191       252.213
  1.049925       252.161
  1.053660       251.458
  1.057394       251.139
  1.061128       250.846
  1.064862       250.927
  1.068596       250.644
  1.072330       250.428
  1.076063       250.444
  1.079797       249.831
  1.083530       249.87
  1.087263       249.482
  1.090996       249.418
  1.094728       248.847
  1.098461       248.069
  1.102193       247.253
  1.105925       247.04
  1.109657       247.31
  1.113389       246.97
  1.117121       246.793
  1.120852       246.41
  1.124584       245.958
  1.128315       245.894
  1.132046       245.448
  1.135777       244.911
  1.139507       244.697
  1.143238       244.17
  1.146968       243.639
  1.150698       243.322
  1.154428       243.129
  1.158158       243.093
  1.161887       242.272
  1.165617       241.688
  1.169346       241.334
  1.173075       241.533
  1.176804       241.446
  1.180533       240.907
  1.184261       240.499
  1.187989       240.36
  1.191718       239.911
  1.195446       239.348
  1.199173       239.457
  1.202901       239.24
  1.206628       239.215
  1.210356       238.896
  1.214082       238.59
  1.217810       238.061
  1.221536       237.805
  1.225263       237.854
  1.228989       238.068
  1.232715       237.892
  1.236441       237.033
  1.240167       236.82
  1.243892       236.719
  1.247617       236.562
  1.251343       236.087
  1.255068       236.074
  1.258792       236.749
  1.262517       238.771
  1.266241       242.322
  1.269966       245.391
  1.273690       247.933
  1.277413       250.346
  1.281137       252.525
  1.284861       253.596
  1.288584       252.265
  1.292307       248.529
  1.296029       243.081
  1.299752       238.526
  1.303474       235.449
  1.307197       232.999
  1.310919       231.232
  1.314641       229.691
  1.318362       229.5
  1.322084       229.259
  1.325805       228.681
  1.329526       228.529
  1.333247       228.085
  1.336967       227.145
  1.340688       226.612
  1.344408       226.737
  1.348128       226.573
  1.351848       226.26
  1.355567       225.661
  1.359287       225.168
  1.363006       224.56
  1.366725       224.318
  1.370444       223.901
  1.374162       224.023
  1.377881       224.071
  1.381599       223.854
  1.385316       223.345
  1.389034       223.148
  1.392752       223.189
  1.396469       222.971
  1.400186       222.562
  1.403903       221.454
  1.407620       220.75
  1.411336       220.697
  1.415052       220.6
  1.418768       220.444
  1.422484       220.804
  1.426199       220.325
  1.429915       219.401
  1.433630       219.02
  1.437345       218.844
  1.441059       217.913
  1.444774       217.301
  1.448488       216.986
  1.452202       217.132
  1.455916       216.933
  1.459629       216.743
  1.463343       216.355
  1.467056       216.083
  1.470769       216.196
  1.474482       215.824
  1.478194       215.184
  1.481906       214.636
  1.485618       214.237
  1.489330       214.356
  1.493041       214.12
  1.496753       213.33
  1.500464       213.312
  1.504175       213.083
  1.507885       212.962
  1.511596       212.589
  1.515306       212.221
  1.519016       212.015
  1.522726       212.051
  1.526435       212.018
  1.530144       211.782
  1.533853       211.049
  1.537562       210.225
  1.541270       209.391
  1.544979       208.724
  1.548687       208.753
  1.552395       209.19
  1.556102       209.526
  1.559809       208.748
  1.563517       208.295
  1.567223       207.513
  1.570930       207.348
  1.574636       207.305
  1.578343       207.445
  1.582049       207.143
  1.585754       206.545
  1.589460       206.17
  1.593165       206.443
  1.596870       206.419
  1.600574       205.556
  1.604279       205.609
  1.607983       206.097
  1.611687       206.019
  1.615391       205.171
  1.619094       204.257
  1.622797       203.846
  1.626500       203.725
  1.630203       203.309
  1.633905       202.833
  1.637608       202.519
  1.641310       202.177
  1.645011       201.812
  1.648713       201.6
  1.652414       202.035
  1.656115       201.63
  1.659816       201.228
  1.663516       200.91
  1.667216       201.463
  1.670916       201.413
  1.674616       200.969
  1.678315       200.363
  1.682014       199.972
  1.685714       199.518
  1.689412       199.073
  1.693110       198.459
  1.696809       198.372
  1.700506       197.98
  1.704204       197.843
  1.707901       196.912
  1.711599       196.318
  1.715295       195.842
  1.718992       196.014
  1.722688       196.083
  1.726384       195.749
  1.730080       195.434
  1.733776       195.638
  1.737471       195.932
  1.741166       196.073
  1.744861       195.58
  1.748555       195.172
  1.752249       195.057
  1.755943       194.822
  1.759637       194.195
  1.763330       193.67
  1.767023       193.502
  1.770716       193.658
  1.774409       193.403
  1.778101       192.904
  1.781793       192.844
  1.785485       192.778
  1.789176       192.2
  1.792868       191.807
  1.796558       191.836
  1.800249       191.299
  1.803939       190.855
  1.807629       190.613
  1.811319       190.071
  1.815009       190.027
  1.818698       189.471
  1.822387       188.564
  1.826076       188.352
  1.829764       188.459
  1.833452       188.65
  1.837140       188.633
  1.840828       188.6
  1.844515       188.137
  1.848202       187.482
  1.851889       186.987
  1.855576       187.339
  1.859262       187.56
  1.862948       186.898
  1.866633       186.179
  1.870318       186.229
  1.874004       186.319
  1.877688       186.324
  1.881373       186.324
  1.885057       185.992
  1.888741       185.23
  1.892425       184.775
  1.896108       184.768
  1.899791       184.94
  1.903473       184.743
  1.907156       184.357
  1.910838       183.478
  1.914520       183.106
  1.918202       183.39
  1.921883       183.532
  1.925564       183.289
  1.929245       182.855
  1.932925       182.689
  1.936605       183.02
  1.940285       182.7
  1.943964       182.063
  1.947644       181.357
  1.951322       181.705
  1.955001       181.395
  1.958679       181.164
  1.962357       180.864
  1.966035       180.643
  1.969712       180.757
  1.973390       181.522
  1.977067       182.707
  1.980743       184.761
  1.984419       187.85
  1.988095       192.329
  1.991771       198.555
  1.995446       204.854
  1.999121       210.282
  2.002795       213.932
  2.006470       213.405
  2.010144       206.49
  2.013818       195.514
  2.017491       186.455
  2.021164       181.008
  2.024837       178.846
  2.028510       178.298
  2.032182       177.706
  2.035854       176.778
  2.039525       176.345
  2.043197       176.094
  2.046868       176.813
  2.050538       176.951
  2.054209       177.066
  2.057878       178.018
  2.061548       179.498
  2.065217       181.63
  2.068887       184.718
  2.072556       189.608
  2.076224       196.617
  2.079892       205.716
  2.083560       215.038
  2.087227       223.317
  2.090894       229.248
  2.094561       230.928
  2.098228       226.016
  2.101894       215.131
  2.105560       202.135
  2.109226       191.8
  2.112891       184.626
  2.116556       180.008
  2.120220       176.881
  2.123885       174.721
  2.127548       173.373
  2.131212       172.704
  2.134876       171.549
  2.138538       171.422
  2.142201       171.298
  2.145863       170.608
  2.149525       169.867
  2.153187       169.504
  2.156848       168.796
  2.160509       168.411
  2.164170       168.325
  2.167830       168.362
  2.171490       168.198
  2.175150       167.838
  2.178809       167.584
  2.182468       167.34
  2.186127       166.91
  2.189785       166.811
  2.193444       166.23
  2.197101       165.779
  2.200758       165.412
  2.204416       165.606
  2.208072       165.182
  2.211728       165.15
  2.215384       164.618
  2.219040       164.066
  2.222696       163.722
  2.226350       164.119
  2.230005       163.986
  2.233659       163.096
  2.237313       162.748
  2.240967       162.743
  2.244620       162.669
  2.248273       162.821
  2.251926       162.846
  2.255578       162.363
  2.259230       161.811
  2.262881       161.626
  2.266532       161.845
  2.270183       161.943
  2.273834       161.781
  2.277484       161.349
  2.281134       161.115
  2.284783       160.903
  2.288432       160.661
  2.292081       160.244
  2.295729       160.026
  2.299377       159.654
  2.303025       159.759
  2.306673       159.975
  2.310319       159.616
  2.313966       159.099
  2.317612       159.139
  2.321258       159.298
  2.324904       159.012
  2.328549       158.95
  2.332194       159.124
  2.335839       159.083
  2.339483       158.921
  2.343127       158.895
  2.346770       158.411
  2.350413       158.112
  2.354056       158.295
  2.357698       157.981
  2.361340       158.092
  2.364982       158.22
  2.368623       158.418
  2.372264       158.513
  2.375905       157.996
  2.379545       157.749
  2.383185       157.811
  2.386824       158.085
  2.390463       158.715
  2.394102       159.828
  2.397740       160.572
  2.401378       161.068
  2.405016       161.983
  2.408653       163.912
  2.412290       165.787
  2.415926       168.292
  2.419563       171.837
  2.423198       177.548
  2.426834       186.441
  2.430469       199.432
  2.434103       218.15
  2.437738       244.304
  2.441372       277.294
  2.445005       311.416
  2.448639       340.522
  2.452271       359.23
  2.455904       358.649
  2.459536       332.053
  2.463167       289.348
  2.466799       248.611
  2.470429       218.582
  2.474060       199.066
  2.477690       185.816
  2.481320       177.539
  2.484950       171.791
  2.488579       167.806
  2.492207       164.105
  2.495836       161.371
  2.499463       159.751
  2.503091       158.232
  2.506718       156.476
  2.510345       155.406
  2.513971       154.677
  2.517597       153.776
  2.521223       153.406
  2.524848       153.185
  2.528473       152.376
  2.532097       152.494
  2.535721       152.731
  2.539345       153.059
  2.542968       153.927
  2.546591       155.995
  2.550213       159.282
  2.553835       162.472
  2.557457       165.153
  2.561079       166.808
  2.564699       166.266
  2.568320       163.27
  2.571940       158.836
  2.575560       155.226
  2.579179       152.258
  2.582798       150.252
  2.586417       149.29
  2.590035       148.248
  2.593652       147.755
  2.597270       147.54
  2.600887       147.186
  2.604503       146.349
  2.608119       145.505
  2.611735       145.587
  2.615351       145.464
  2.618966       145.244
  2.622580       144.84
  2.626194       144.605
  2.629808       144.475
  2.633422       144.703
  2.637035       144.888
  2.640647       144.581
  2.644259       144.352
  2.647871       144.572
  2.651482       144.288
  2.655093       144.216
  2.658704       144.036
  2.662314       143.988
  2.665924       143.543
  2.669533       143.289
  2.673142       142.934
  2.676751       142.869
  2.680359       143.067
  2.683966       142.856
  2.687574       142.734
  2.691180       143.015
  2.694787       143.059
  2.698393       143.364
  2.701998       143.069
  2.705604       142.345
  2.709209       142.452
  2.712813       142.567
  2.716417       142.486
  2.720021       142.126
  2.723624       142.044
  2.727226       142.089
  2.730829       141.709
  2.734431       141.633
  2.738032       141.37
  2.741633       141.66
  2.745234       140.909
  2.748834       140.861
  2.752434       140.635
  2.756033       140.812
  2.759632       140.696
  2.763231       140.635
  2.766829       140.634
  2.770427       140.776
  2.774023       140.609
  2.777620       140.528
  2.781217       140.309
  2.784813       140.321
  2.788408       140.631
  2.792003       140.607
  2.795598       140.274
  2.799192       140.062
  2.802786       139.797
  2.806380       139.612
  2.809973       139.647
  2.813565       139.481
  2.817158       139.017
  2.820749       139.03
  2.824340       139.013
  2.827931       138.775
  2.831522       139.199
  2.835112       138.83
  2.838701       138.97
  2.842290       139.28
  2.845879       138.717
  2.849467       138.611
  2.853055       138.437
  2.856642       138.383
  2.860229       138.453
  2.863816       138.315
  2.867402       138.319
  2.870987       137.959
  2.874573       137.718
  2.878157       137.498
  2.881742       137.81
  2.885325       137.868
  2.888909       137.833
  2.892492       138.522
  2.896074       138.57
  2.899657       138.855
  2.903238       139.168
  2.906819       139.515
  2.910400       140
  2.913980       140.408
  2.917560       140.224
  2.921139       140.849
  2.924718       141.907
  2.928297       143.582
  2.931875       145.48
  2.935453       148.012
  2.939030       152.07
  2.942607       157.668
  2.946183       164.803
  2.949759       172.67
  2.953334       179.901
  2.956909       184.497
  2.960484       183.99
  2.964057       177.677
  2.967631       167.699
  2.971204       157.949
  2.974777       151.418
  2.978349       147.312
  2.981921       144.34
  2.985492       142.78
  2.989063       141.189
  2.992633       139.512
  2.996203       138.705
  2.999773       138.128
  3.003342       137.659
  3.006910       136.835
  3.010478       136.834
  3.014046       136.337
  3.017613       136.023
  3.021180       135.597
  3.024746       135.208
  3.028312       134.847
  3.031877       135.016
  3.035442       134.717
  3.039006       133.911
  3.042570       134.115
  3.046134       134.045
  3.049696       133.912
  3.053259       133.713
  3.056821       133.578
  3.060383       133.067
  3.063944       133.349
  3.067504       133.54
  3.071065       133.395
  3.074625       132.684
  3.078184       132.407
  3.081743       132.585
  3.085301       132.396
  3.088859       132.21
  3.092416       132.713
  3.095973       132.816
  3.099529       132.562
  3.103085       132.503
  3.106641       132.067
  3.110195       131.824
  3.113750       132.028
  3.117304       131.86
  3.120858       131.834
  3.124411       131.554
  3.127964       131.62
  3.131516       131.518
  3.135067       131.087
  3.138618       131.362
  3.142169       131.508
  3.145719       131.038
  3.149269       130.975
  3.152818       130.398
  3.156367       130.719
  3.159916       130.92
  3.163463       130.768
  3.167010       131.108
  3.170557       131.355
  3.174103       131.716
  3.177649       131.507
  3.181195       131.261
  3.184740       131.213
  3.188284       131.029
  3.191828       130.638
  3.195371       130.429
  3.198915       130.198
  3.202457       130.39
  3.205999       130.477
  3.209540       130.887
  3.213081       130.81
  3.216622       130.836
  3.220162       131.222
  3.223701       131.663
  3.227240       131.54
  3.230778       131.09
  3.234316       131.223
  3.237854       131.121
  3.241391       131.274
  3.244928       132.493
  3.248463       134.181
  3.251999       137.052
  3.255534       142.353
  3.259069       149.787
  3.262603       158.147
  3.266136       167.162
  3.269669       169.327
  3.273202       157.813
  3.276734       143.713
  3.280266       135.066
  3.283797       131.825
  3.287327       130.328
  3.290857       129.636
  3.294386       129.548
  3.297915       128.957
  3.301444       129.068
  3.304972       129.108
  3.308500       128.832
  3.312027       128.639
  3.315553       128.53
  3.319079       128.221
  3.322605       128.189
  3.326130       128.568
  3.329654       128.844
  3.333178       128.191
  3.336702       128.294
  3.340225       127.832
  3.343747       127.449
  3.347269       127.17
  3.350791       127.164
  3.354311       127.576
  3.357831       127.728
  3.361351       127.551
  3.364871       128.03
  3.368390       128.34
  3.371908       127.777
  3.375426       127.731
  3.378943       127.848
  3.382460       127.926
  3.385976       127.634
  3.389492       127.512
  3.393007       127.508
  3.396522       127.309
  3.400036       127.128
  3.403550       127.477
  3.407063       127.278
  3.410576       127.132
  3.414088       127.18
  3.417599       126.976
  3.421110       127.029
  3.424620       127.383
  3.428130       126.938
  3.431640       126.996
  3.435149       126.703
  3.438657       126.592
  3.442165       126.459
  3.445673       126.568
  3.449180       126.442
  3.452686       126.735
  3.456192       126.44
  3.459697       126.366
  3.463202       126.172
  3.466706       126.049
  3.470210       126.79
  3.473713       125.961
  3.477216       126.088
  3.480717       126.209
  3.484219       126.809
  3.487720       126.812
  3.491220       126.216
  3.494721       126.302
  3.498220       126.296
  3.501719       126.108
  3.505217       126.084
  3.508715       126.452
  3.512213       125.854
  3.515709       125.709
  3.519205       125.823
  3.522701       125.392
  3.526196       125.747
  3.529691       125.462
  3.533185       126.064
  3.536678       126.236
  3.540171       126.214
  3.543664       126.105
  3.547155       126.164
  3.550647       126.115
  3.554137       125.175
  3.557628       126.003
  3.561117       126.323
  3.564607       126.357
  3.568095       126.723
  3.571583       126.583
  3.575071       126.366
  3.578558       126.602
  3.582044       127.049
  3.585531       127.363
  3.589016       128.145
  3.592501       128.949
  3.595985       129.253
  3.599468       129.505
  3.602951       131.278
  3.606434       133.296
  3.609916       137.006
  3.613398       142.226
  3.616878       147.533
  3.620359       152.572
  3.623839       153.855
  3.627318       149.569
  3.630797       142.59
  3.634275       135.971
  3.637752       131.623